Folder: project_chameleon/XRD/BrukerRAW/.ipynb_checkpoints

Note: README.md
# project_chameleon
Repository for Project Chameleon conversion scripts

# Conversions held in the repository:
XRD: Brker RAW to CSV
XRD: Bruker BML to CSV
RHEED: 16 bpp images to TIF/PNG
JEOL SEM: Raw image, EDS line scan, and EDS map file reverse engineered
4D STEM: documented and converted to series of 2D slices (16bpp TIFS)
MBE: Data to ASCII formats?
ARPES: raw ASCII to interpretable ASCII
Single data set extraction from single source file

File: final-checkpoint.txt
# exported by xylib from a bruker_raw file
# AMPLIFIER_GAIN: 120
# DISCRIMINATOR_1_LOWER_LEVEL: 0.3
# GENERATOR_CURRENT: 30
# GENERATOR_VOLTAGE: 40
# HIGH_VOLTAGE: 727
# ROTATION_SPEED [rpm]: 0
# START_2THETA: 60
# START_THETA: 30
# STEPS: 3001
# STEP_SIZE: 0.006
# TIME_PER_STEP: 16.1061
# USED_LAMBDA: 1.5406
# column_1	column_2
60	362
60.054	334
60.108	340
60.162	374
60.216	357
60.27	329
60.324	366
60.378	362
60.432	383
60.486	357
60.54	345
60.594	355
60.648	351
60.702	355
60.756	356
60.81	366
60.864	349
60.918	352
60.972	397
61.026	372
61.08	380
61.134	365
61.188	373
61.242	403
61.296	386
61.35	388
61.404	410
61.458	388
61.512	374
61.566	385
61.62	416
61.674	445
61.728	426
61.782	436
61.836	455
61.89	453
61.944	485
61.998	551
62.052	510
62.106	618
62.16	633
62.214	775
62.268	906
62.322	1097
62.376	1414
62.43	1768
62.484	2278
62.538	2295
62.592	2004
62.646	1895
62.7	1687
62.754	1282
62.808	1009
62.862	791
62.916	666
62.97	597
63.024	494
63.078	501
63.132	468
63.186	493
63.24	462
63.294	435
63.348	487
63.402	429
63.456	408
63.51	370
63.564	368
63.618	399
63.672	370
63.726	365
63.78	376
63.834	393
63.888	376
63.942	353
63.996	358
64.05	347
64.104	356
64.158	347
64.212	348
64.266	337
64.32	341
64.374	320
64.428	345
64.482	372
64.536	345
64.59	382
64.644	334
64.698	343
64.752	375
64.806	324
64.86	352
64.914	370
64.968	354
65.022	394
65.076	348
65.13	350
65.184	342
65.238	407
65.292	410
65.346	395
65.4	403
65.454	457
65.508	493
65.562	587
65.616	681
65.67	845
65.724	972
65.778	896
65.832	808
65.886	759
65.94	699
65.994	596
66.048	528
66.102	492
66.156	386
66.21	367
66.264	394
66.318	367
66.372	372
66.426	367
66.48	338
66.534	391
66.588	347
66.642	343
66.696	376
66.75	308
66.804	384
66.858	340
66.912	347
66.966	276
67.02	346
67.074	346
67.128	348
67.182	319
67.236	308
67.29	320
67.344	311
67.398	335
67.452	322
67.506	280
67.56	324
67.614	320
67.668	326
67.722	304
67.776	338
67.83	311
67.884	326
67.938	306
67.992	331
68.046	315
68.1	322
68.154	304
68.208	347
68.262	329
68.316	297
68.37	343
68.424	327
68.478	309
68.532	308
68.586	329
68.64	316
68.694	307
68.748	336
68.802	329
68.856	340
68.91	310
68.964	310
69.018	323
69.072	343
69.126	354
69.18	332
69.234	349
69.288	331
69.342	289
69.396	307
69.45	338
69.504	306
69.558	328
69.612	343
69.666	369
69.72	318
69.774	371
69.828	375
69.882	368
69.936	387
69.99	347
70.044	358
70.098	382
70.152	412
70.206	424
70.26	442
70.314	431
70.368	435
70.422	479
70.476	573
70.53	627
70.584	682
70.638	747
70.692	942
70.746	1163
70.8	1518
70.854	1851
70.908	2260
70.962	2539
71.016	2134
71.07	1858
71.124	1664
71.178	1560
71.232	1192
71.286	929
71.34	751
71.394	614
71.448	520
71.502	517
71.556	446
71.61	383
71.664	394
71.718	365
71.772	373
71.826	379
71.88	327
71.934	368
71.988	346
72.042	335
72.096	351
72.15	340
72.204	313
72.258	323
72.312	311
72.366	285
72.42	347
72.474	328
72.528	311
72.582	374
72.636	340
72.69	326
72.744	318
72.798	321
72.852	336
72.906	306
72.96	316
73.014	303
73.068	310
73.122	326
73.176	335
73.23	323
73.284	312
73.338	349
73.392	301
73.446	316
73.5	307
73.554	338
73.608	350
73.662	314
73.716	375
73.77	372
73.824	402
73.878	456
73.932	439
73.986	422
74.04	408
74.094	406
74.148	414
74.202	384
74.256	359
74.31	326
74.364	358
74.418	330
74.472	329
74.526	333
74.58	300
74.634	327
74.688	341
74.742	307
74.796	350
74.85	335
74.904	353
74.958	352
75.012	374
75.066	347
75.12	347
75.174	311
75.228	323
75.282	337
75.336	318
75.39	307
75.444	311
75.474	283