Folder: project_chameleon/XRD/BrukerRAW

Note: README.md
# project_chameleon
Repository for Project Chameleon conversion scripts

# Conversions held in the repository:
XRD: Brker RAW to CSV
XRD: Bruker BML to CSV
RHEED: 16 bpp images to TIF/PNG
JEOL SEM: Raw image, EDS line scan, and EDS map file reverse engineered
4D STEM: documented and converted to series of 2D slices (16bpp TIFS)
MBE: Data to ASCII formats?
ARPES: raw ASCII to interpretable ASCII
Single data set extraction from single source file

File: PDC_02232018_1_LDFC_MKS_-Ba2CaWO6-2_ROOM TEMP_12HR.xy
60.00000 362.000
60.06600 388.000
60.13200 372.000
60.19800 364.000
60.26400 361.000
60.33000 393.000
60.39600 374.000
60.46200 359.000
60.52800 385.000
60.59400 355.000
60.66000 375.000
60.72600 337.000
60.79200 361.000
60.85800 335.000
60.92400 362.000
60.99000 389.000
61.05600 368.000
61.12200 376.000
61.18800 373.000
61.25400 379.000
61.32000 420.000
61.38600 395.000
61.45200 396.000
61.51800 371.000
61.58400 365.000
61.65000 418.000
61.71600 401.000
61.78200 436.000
61.84800 460.000
61.91400 471.000
61.98000 493.000
62.04600 546.000
62.11200 601.000
62.17800 646.000
62.24400 788.000
62.31000 1026.000
62.37600 1414.000
62.44200 1927.000
62.50800 2273.000
62.57400 2251.000
62.64000 1955.000
62.70600 1528.000
62.77200 1148.000
62.83800 846.000
62.90400 707.000
62.97000 597.000
63.03600 535.000
63.10200 471.000
63.16800 502.000
63.23400 448.000
63.30000 471.000
63.36600 468.000
63.43200 396.000
63.49800 378.000
63.56400 368.000
63.63000 387.000
63.69600 362.000
63.76200 382.000
63.82800 374.000
63.89400 351.000
63.96000 326.000
64.02600 340.000
64.09200 331.000
64.15800 347.000
64.22400 330.000
64.29000 356.000
64.35600 389.000
64.42200 375.000
64.48800 337.000
64.55400 334.000
64.62000 360.000
64.68600 348.000
64.75200 375.000
64.81800 343.000
64.88400 344.000
64.95000 365.000
65.01600 343.000
65.08200 375.000
65.14800 363.000
65.21400 380.000
65.28000 369.000
65.34600 395.000
65.41200 422.000
65.47800 502.000
65.54400 515.000
65.61000 654.000
65.67600 780.000
65.74200 946.000
65.80800 847.000
65.87400 799.000
65.94000 699.000
66.00600 571.000
66.07200 459.000
66.13800 443.000
66.20400 397.000
66.27000 400.000
66.33600 401.000
66.40200 373.000
66.46800 346.000
66.53400 391.000
66.60000 321.000
66.66600 323.000
66.73200 358.000
66.79800 336.000
66.86400 320.000
66.93000 341.000
66.99600 366.000
67.06200 320.000
67.12800 348.000
67.19400 354.000
67.26000 315.000
67.32600 327.000
67.39200 340.000
67.45800 347.000
67.52400 331.000
67.59000 320.000
67.65600 333.000
67.72200 304.000
67.78800 301.000
67.85400 330.000
67.92000 317.000
67.98600 306.000
68.05200 311.000
68.11800 336.000
68.18400 334.000
68.25000 308.000
68.31600 297.000
68.38200 359.000
68.44800 339.000
68.51400 300.000
68.58000 333.000
68.64600 321.000
68.71200 349.000
68.77800 314.000
68.84400 362.000
68.91000 310.000
68.97600 358.000
69.04200 324.000
69.10800 303.000
69.17400 310.000
69.24000 326.000
69.30600 369.000
69.37200 340.000
69.43800 338.000
69.50400 306.000
69.57000 332.000
69.63600 337.000
69.70200 375.000
69.76800 323.000
69.83400 340.000
69.90000 345.000
69.96600 380.000
70.03200 422.000
70.09800 382.000
70.16400 374.000
70.23000 442.000
70.29600 436.000
70.36200 488.000
70.42800 522.000
70.49400 559.000
70.56000 620.000
70.62600 792.000
70.69200 942.000
70.75800 1195.000
70.82400 1611.000
70.89000 2068.000
70.95600 2482.000
71.02200 2083.000
71.08800 1809.000
71.15400 1634.000
71.22000 1222.000
71.28600 929.000
71.35200 657.000
71.41800 543.000
71.48400 505.000
71.55000 475.000
71.61600 421.000
71.68200 400.000
71.74800 376.000
71.81400 374.000
71.88000 327.000
71.94600 359.000
72.01200 322.000
72.07800 306.000
72.14400 317.000
72.21000 335.000
72.27600 324.000
72.34200 303.000
72.40800 331.000
72.47400 328.000
72.54000 303.000
72.60600 359.000
72.67200 304.000
72.73800 308.000
72.80400 299.000
72.87000 361.000
72.93600 302.000
73.00200 294.000
73.06800 310.000
73.13400 315.000
73.20000 318.000
73.26600 314.000
73.33200 340.000
73.39800 328.000
73.46400 356.000
73.53000 335.000
73.59600 346.000
73.66200 314.000
73.72800 345.000
73.79400 386.000
73.86000 419.000
73.92600 427.000
73.99200 479.000
74.05800 429.000
74.12400 445.000
74.19000 389.000
74.25600 359.000
74.32200 348.000
74.38800 321.000
74.45400 331.000
74.52000 338.000
74.58600 315.000
74.65200 342.000
74.71800 304.000
74.78400 335.000
74.85000 335.000
74.91600 348.000
74.98200 339.000
75.04800 356.000
75.11400 363.000
75.18000 326.000
75.24600 309.000
75.31200 334.000
75.37800 303.000
75.44400 311.000
75.51000 313.000
75.57600 304.000
75.64200 323.000
75.70800 310.000
75.77400 309.000
75.84000 297.000
75.90600 308.000
75.97200 331.000
76.03800 314.000
76.10400 343.000
76.17000 314.000
76.23600 300.000
76.30200 295.000
76.36800 307.000
76.43400 321.000
76.50000 329.000
76.56600 325.000
76.63200 318.000
76.69800 324.000
76.76400 343.000
76.83000 344.000
76.89600 311.000
76.96200 292.000
77.02800 320.000
77.09400 284.000
77.16000 303.000
77.22600 293.000
77.29200 334.000
77.35800 295.000
77.42400 327.000
77.49000 282.000
77.55600 280.000
77.62200 301.000
77.68800 323.000
77.75400 297.000
77.82000 302.000
77.88600 286.000
77.95200 299.000
78.00000 312.000